Folder: 28_nasa_RtRetrievalFramework/input/common/input/solar

File: solar_spectrum_02368_1.txt
Solar Doppler Velocity [m/s]:   298.33                # Note: Positive means FOV moving TOWARDS the sun.
Solar Intensity Units are: ph/s/m^2/um
Distance to Sun in AU:    1.00721
S = Solar Rest Frame.  E = earth-centered rest frame.
        Wavenumber_E        Wavenumber_S   Wavelength_S [um]       Transmittance           Intensity
         13200.2         13200.2        0.757562        0.967478        0.467949E+22
         13198.1         13198        0.757688        0.995519        0.481451E+22
         13195.9         13195.9        0.757814        0.99999        0.483552E+22
         13193.7         13193.7        0.757939        0.995256        0.481202E+22
         13191.5         13191.5        0.758065        0.993525        0.480304E+22
         13189.3         13189.3        0.758191        0.999373        0.483070E+22
         13187.1         13187.1        0.758317        0.999873        0.483250E+22
         13184.9         13184.9        0.758443        0.998726        0.482635E+22
         13182.7         13182.7        0.758569        0.982168        0.474573E+22
         13180.5         13180.5        0.758695        0.995669        0.481035E+22
         13178.4         13178.3        0.758821        0.722057        0.348801E+22
         13176.2         13176.1        0.758947        0.998939        0.482492E+22
         13174         13174        0.759073        0.994122        0.480104E+22
         13171.8         13171.8        0.7592        0.994589        0.480268E+22
         13169.6         13169.6        0.759326        0.998822        0.482251E+22
         13167.4         13167.4        0.759452        0.996929        0.481276E+22
         13165.2         13165.2        0.759578        0.998664        0.482051E+22
         13163         13163        0.759705        0.998086        0.481711E+22
         13160.8         13160.8        0.759831        0.996832        0.481044E+22
         13158.6         13158.6        0.759958        0.995258        0.480223E+22
         13156.5         13156.4        0.760084        0.992032        0.478605E+22
         13154.3         13154.2        0.760211        0.98137        0.473401E+22
         13152.1         13152.1        0.760337        0.96927        0.467504E+22
         13149.9         13149.9        0.760464        0.989735        0.477313E+22
         13147.7         13147.7        0.760591        0.994517        0.479558E+22
         13145.5         13145.5        0.760717        0.994332        0.479407E+22
         13143.3         13143.3        0.760844        0.959544        0.462575E+22
         13141.1         13141.1        0.760971        0.997337        0.480732E+22
         13138.9         13138.9        0.761098        0.991488        0.477851E+22
         13136.7         13136.7        0.761225        0.961186        0.463188E+22
         13134.5         13134.5        0.761352        0.998719        0.481213E+22
         13132.4         13132.3        0.761479        0.999427        0.481492E+22
         13130.2         13130.2        0.761606        0.99904        0.481243E+22
         13128         13128        0.761733        0.996882        0.480142E+22
         13125.8         13125.8        0.76186        0.995854        0.479584E+22
         13123.6         13123.6        0.761987        0.999054        0.481063E+22
         13121.4         13121.4        0.762114        0.971583        0.467775E+22
         13119.2         13119.2        0.762241        0.994458        0.478726E+22
         13117         13117        0.762368        0.999903        0.481285E+22
         13114.8         13114.8        0.762496        0.999921        0.481231E+22
         13112.6         13112.6        0.762623        0.999898        0.481158E+22
         13110.5         13110.4        0.762751        0.999999        0.481144E+22
         13108.3         13108.3        0.762878        0.999998        0.481081E+22
         13106.1         13106.1        0.763005        0.981124        0.471940E+22
         13103.9         13103.9        0.763133        0.987112        0.474758E+22
         13101.7         13101.7        0.76326        0.999917        0.480854E+22
         13099.5         13099.5        0.763388        0.999999        0.480831E+22
         13097.3         13097.3        0.763516        0.999951        0.480746E+22
         13095.1         13095.1        0.763643        0.999979        0.480697E+22
         13092.9         13092.9        0.763771        0.998024        0.479694E+22
         13090.8         13090.7        0.763899        0.999561        0.480370E+22
         13088.6         13088.5        0.764027        0.999554        0.480304E+22
         13086.4         13086.4        0.764155        0.999326        0.480132E+22
         13084.2         13084.2        0.764283        0.998182        0.479519E+22
         13082         13082        0.76441        0.999988        0.480324E+22
         13079.8         13079.8        0.764538        1        0.480267E+22
         13077.6         13077.6        0.764666        1        0.480204E+22
         13075.4         13075.4        0.764795        0.998348        0.479348E+22
         13073.2         13073.2        0.764923        0.999999        0.480078E+22
         13071         13071        0.765051        0.999898        0.479966E+22
         13068.9         13068.8        0.765179        1        0.479952E+22
         13066.7         13066.6        0.765307        0.858586        0.412026E+22
         13064.5         13064.5        0.765436        0.99998        0.479816E+22
         13062.3         13062.3        0.765564        0.985872        0.472985E+22
         13060.1         13060.1        0.765692        0.988085        0.473984E+22
         13057.9         13057.9        0.765821        0.999159        0.479233E+22
         13055.7         13055.7        0.765949        0.944447        0.452931E+22
         13053.5         13053.5        0.766078        0.992346        0.475840E+22
         13051.3         13051.3        0.766206        0.789003        0.378285E+22
         13049.1         13049.1        0.766335        0.620174        0.297301E+22
         13047         13046.9        0.766463        0.986919        0.473050E+22
         13044.8         13044.7        0.766592        0.998607        0.478589E+22
         13042.6         13042.6        0.766721        0.88844        0.425734E+22
         13040.4         13040.4        0.76685        0.999909        0.479086E+22
         13038.2         13038.2        0.766978        0.994451        0.476408E+22
         13036         13036        0.767107        0.985468        0.472042E+22
         13033.8         13033.8        0.767236        0.99597        0.477009E+22
         13031.6         13031.6        0.767365        0.999895        0.478825E+22
         13029.4         13029.4        0.767494        0.999023        0.478344E+22
         13027.2         13027.2        0.767623        0.999877        0.478690E+22
         13025         13025        0.767752        0.999677        0.478530E+22
         13022.9         13022.8        0.767881        0.999504        0.478384E+22
         13020.7         13020.7        0.76801        0.983119        0.470479E+22
         13018.5         13018.5        0.76814        0.99858        0.477814E+22
         13016.3         13016.3        0.768269        0.984236        0.470888E+22
         13014.1         13014.1        0.768398        0.993991        0.475492E+22
         13011.9         13011.9        0.768527        0.999174        0.477907E+22
         13009.7         13009.7        0.768657        0.999992        0.478235E+22
         13007.5         13007.5        0.768786        0.999857        0.478106E+22
         13005.3         13005.3        0.768916        0.999394        0.477821E+22
         13003.1         13003.1        0.769045        0.957181        0.457577E+22
         13001         13000.9        0.769175        0.999003        0.477506E+22
         12998.8         12998.8        0.769304        0.978735        0.467755E+22
         12996.6         12996.6        0.769434        0.983367        0.469906E+22
         12994.4         12994.4        0.769564        0.99738        0.476538E+22
         12992.2         12992.2        0.769693        0.999445        0.477461E+22
         12990         12990        0.769823        0.995782        0.475647E+22
         12987.8         12987.8        0.769953        0.999629        0.477420E+22
         12985.6         12985.6        0.770083        0.977927        0.466993E+22
         12983.4         12983.4        0.770213        0.999571        0.477264E+22
         12981.2         12981.2        0.770343        0.999936        0.477374E+22
         12979.1         12979        0.770473        0.996415        0.475629E+22
         12976.9         12976.9        0.770603        0.999996        0.477274E+22
         12974.7         12974.7        0.770733        0.999721        0.477079E+22
         12972.5         12972.5        0.770863        0.998912        0.476628E+22
         12970.3         12970.3        0.770993        0.993091        0.473787E+22
         12968.1         12968.1        0.771123        0.991434        0.472933E+22
         12965.9         12965.9        0.771253        0.671902        0.320467E+22
         12963.7         12963.7        0.771384        0.716286        0.341589E+22
         12961.5         12961.5        0.771514        0.997373        0.475572E+22
         12959.4         12959.3        0.771644        0.474499        0.226222E+22
         12957.2         12957.1        0.771775        0.744441        0.354872E+22
         12955         12955        0.771905        0.997267        0.475329E+22
         12952.8         12952.8        0.772036        0.999919        0.476528E+22
         12950.6         12950.6        0.772166        0.99769        0.475401E+22
         12948.4         12948.4        0.772297        0.987325        0.470398E+22
         12946.2         12946.2        0.772428        0.991201        0.472181E+22
         12944         12944        0.772558        0.98877        0.470959E+22
         12941.8         12941.8        0.772689        0.998067        0.475322E+22
         12940.7         12940.7        0.772755        0.996033        0.474321E+22

File: solar_spectrum_02368_2.txt
Solar Doppler Velocity [m/s]:   298.33                # Note: Positive means FOV moving TOWARDS the sun.
Solar Intensity Units are: ph/s/m^2/um
Distance to Sun in AU:    1.00721
S = Solar Rest Frame.  E = earth-centered rest frame.
        Wavenumber_E        Wavenumber_S   Wavelength_S [um]       Transmittance           Intensity
          6288.29          6288.28        1.59026        0.787969        0.165611E+22
          6287.22          6287.21        1.59053        0.986706        0.207321E+22
          6286.15          6286.14        1.5908        0.97801        0.205434E+22
          6285.08          6285.07        1.59107        0.908144        0.190704E+22
          6284.01          6284        1.59134        0.922389        0.193639E+22
          6282.94          6282.93        1.59161        0.963585        0.202229E+22
          6281.87          6281.86        1.59188        0.988601        0.207419E+22
          6280.8          6280.79        1.59216        0.939638        0.197089E+22
          6279.73          6279.72        1.59243        0.97583        0.204621E+22
          6278.66          6278.65        1.5927        0.95455        0.200101E+22
          6277.59          6277.58        1.59297        0.999664        0.209497E+22
          6276.52          6276.51        1.59324        0.916632        0.192041E+22
          6275.45          6275.44        1.59351        0.999936        0.209432E+22
          6274.38          6274.37        1.59378        0.996954        0.208747E+22
          6273.31          6273.3        1.59406        0.999667        0.209254E+22
          6272.24          6272.23        1.59433        0.850167        0.177908E+22
          6271.17          6271.16        1.5946        0.921999        0.192884E+22
          6270.1          6270.09        1.59487        0.997803        0.208682E+22
          6269.03          6269.02        1.59514        0.999389        0.208952E+22
          6267.96          6267.95        1.59542        0.998458        0.208697E+22
          6266.89          6266.88        1.59569        0.949425        0.198390E+22
          6265.82          6265.81        1.59596        0.959791        0.200497E+22
          6264.75          6264.74        1.59623        0.93576        0.195420E+22
          6263.68          6263.67        1.59651        0.851234        0.177716E+22
          6262.61          6262.6        1.59678        0.973008        0.203080E+22
          6261.54          6261.53        1.59705        0.994036        0.207408E+22
          6260.47          6260.46        1.59733        0.993679        0.207272E+22
          6259.4          6259.39        1.5976        0.99133        0.206722E+22
          6258.33          6258.32        1.59787        0.987219        0.205804E+22
          6257.26          6257.25        1.59815        0.992927        0.206933E+22
          6256.19          6256.18        1.59842        0.97085        0.202272E+22
          6255.12          6255.11        1.59869        0.979747        0.204066E+22
          6254.05          6254.04        1.59897        0.99805        0.207817E+22
          6252.98          6252.97        1.59924        0.993926        0.206897E+22
          6251.91          6251.9        1.59951        0.997913        0.207666E+22
          6250.84          6250.83        1.59979        0.99833        0.207691E+22
          6249.77          6249.76        1.60006        0.998071        0.207576E+22
          6248.7          6248.69        1.60033        0.997697        0.207436E+22
          6247.63          6247.62        1.60061        0.997539        0.207342E+22
          6246.56          6246.55        1.60088        0.935262        0.194340E+22
          6245.49          6245.48        1.60116        0.798214        0.165813E+22
          6244.42          6244.41        1.60143        0.943946        0.196028E+22
          6243.35          6243.34        1.60171        0.990483        0.205631E+22
          6242.28          6242.27        1.60198        0.948997        0.196960E+22
          6241.21          6241.2        1.60226        0.995981        0.206650E+22
          6240.14          6240.13        1.60253        0.9695        0.201095E+22
          6239.07          6239.06        1.6028        0.996638        0.206663E+22
          6238          6237.99        1.60308        0.997394        0.206758E+22
          6236.93          6236.92        1.60335        0.976733        0.202415E+22
          6235.86          6235.85        1.60363        0.997223        0.206599E+22
          6234.79          6234.78        1.6039        0.995623        0.206206E+22
          6233.72          6233.71        1.60418        0.960388        0.198849E+22
          6232.65          6232.64        1.60446        0.947425        0.196106E+22
          6231.58          6231.57        1.60473        0.85218        0.176339E+22
          6230.51          6230.5        1.60501        0.987515        0.204282E+22
          6229.44          6229.43        1.60528        0.995431        0.205858E+22
          6228.37          6228.36        1.60556        0.995044        0.205716E+22
          6227.3          6227.29        1.60583        0.995831        0.205817E+22
          6226.23          6226.22        1.60611        0.992439        0.205054E+22
          6225.16          6225.15        1.60639        0.923425        0.190738E+22
          6224.09          6224.08        1.60666        0.988905        0.204201E+22
          6223.02          6223.01        1.60694        0.984891        0.203311E+22
          6221.95          6221.94        1.60721        0.992809        0.204884E+22
          6220.88          6220.87        1.60749        0.974701        0.201086E+22
          6219.81          6219.8        1.60777        0.988563        0.203885E+22
          6218.74          6218.73        1.60804        0.798331        0.164601E+22
          6217.67          6217.66        1.60832        0.992885        0.204652E+22
          6216.6          6216.59        1.6086        0.99252        0.204515E+22
          6215.53          6215.52        1.60887        0.991525        0.204248E+22
          6214.46          6214.45        1.60915        0.915549        0.188540E+22
          6213.39          6213.38        1.60943        0.963527        0.198360E+22
          6212.32          6212.31        1.60971        0.976985        0.201070E+22
          6211.25          6211.24        1.60998        0.889106        0.182928E+22
          6210.18          6210.17        1.61026        0.981842        0.201947E+22
          6209.11          6209.1        1.61054        0.968798        0.199203E+22
          6208.04          6208.03        1.61082        0.976377        0.200701E+22
          6206.97          6206.96        1.61109        0.981165        0.201624E+22
          6205.9          6205.89        1.61137        0.980724        0.201471E+22
          6204.83          6204.82        1.61165        0.981182        0.201504E+22
          6203.76          6203.75        1.61193        0.951767        0.195403E+22
          6202.69          6202.68        1.61221        0.976416        0.200403E+22
          6201.62          6201.61        1.61248        0.985941        0.202296E+22
          6200.55          6200.54        1.61276        0.951711        0.195213E+22
          6199.48          6199.47        1.61304        0.640877        0.131415E+22
          6198.41          6198.4        1.61332        0.953726        0.195506E+22
          6197.34          6197.33        1.6136        0.988844        0.202643E+22
          6196.27          6196.26        1.61388        0.985552        0.201907E+22
          6195.2          6195.19        1.61415        0.964061        0.197443E+22
          6194.13          6194.12        1.61443        0.993017        0.203311E+22
          6193.06          6193.05        1.61471        0.989866        0.202604E+22
          6191.99          6191.98        1.61499        0.993881        0.203363E+22
          6190.92          6190.91        1.61527        0.994179        0.203361E+22
          6189.85          6189.84        1.61555        0.951968        0.194667E+22
          6188.78          6188.77        1.61583        0.981974        0.200741E+22
          6187.71          6187.7        1.61611        0.831315        0.169890E+22
          6186.64          6186.63        1.61639        0.99493        0.203264E+22
          6185.57          6185.56        1.61667        0.979382        0.200025E+22
          6184.5          6184.49        1.61695        0.588128        0.120080E+22
          6183.43          6183.42        1.61723        0.994271        0.202941E+22
          6182.36          6182.35        1.61751        0.990822        0.202174E+22
          6181.29          6181.28        1.61779        0.995754        0.203117E+22
          6180.22          6180.21        1.61807        0.994944        0.202889E+22
          6179.15          6179.14        1.61835        0.981158        0.200016E+22
          6178.08          6178.07        1.61863        0.98536        0.200810E+22
          6177.01          6177        1.61891        0.992771        0.202257E+22
          6175.94          6175.93        1.61919        0.994172        0.202480E+22
          6174.87          6174.86        1.61947        0.985999        0.200753E+22
          6173.8          6173.79        1.61975        0.992236        0.201960E+22
          6172.73          6172.72        1.62003        0.983669        0.200153E+22
          6171.66          6171.65        1.62031        0.82622        0.168064E+22
          6170.59          6170.58        1.62059        0.908238        0.184690E+22
          6169.52          6169.51        1.62087        0.73582        0.149582E+22
          6168.45          6168.44        1.62115        0.97222        0.197577E+22
          6167.38          6167.37        1.62144        0.977834        0.198655E+22
          6166.31          6166.3        1.62172        0.970865        0.197178E+22
          6165.24          6165.23        1.622        0.689168        0.139923E+22
          6164.17          6164.16        1.62228        0.995225        0.201999E+22
          6163.88          6163.87        1.62236        0.997058        0.202353E+22