Folder: 28_nasa_RtRetrievalFramework/input/common/input/solar (part 2)

File: solar_spectrum_02368_3.txt
Solar Doppler Velocity [m/s]:   298.33                # Note: Positive means FOV moving TOWARDS the sun.
Solar Intensity Units are: ph/s/m^2/um
Distance to Sun in AU:    1.00721
S = Solar Rest Frame.  E = earth-centered rest frame.
        Wavenumber_E        Wavenumber_S   Wavelength_S [um]       Transmittance           Intensity
          4895.23          4895.23        2.04281        0.998126        0.115980E+22
          4894.4          4894.4        2.04315        0.999968        0.116140E+22
          4893.57          4893.57        2.0435        0.999024        0.115976E+22
          4892.74          4892.74        2.04385        0.999838        0.116017E+22
          4891.91          4891.91        2.04419        0.987955        0.114585E+22
          4891.08          4891.08        2.04454        0.999459        0.115865E+22
          4890.25          4890.25        2.04489        0.992508        0.115006E+22
          4889.42          4889.42        2.04523        0.99593        0.115348E+22
          4888.59          4888.59        2.04558        0.999499        0.115708E+22
          4887.76          4887.76        2.04593        0.999879        0.115698E+22
          4886.93          4886.93        2.04628        0.995555        0.115144E+22
          4886.1          4886.1        2.04662        0.98884        0.114314E+22
          4885.27          4885.27        2.04697        0.99868        0.115398E+22
          4884.44          4884.44        2.04732        0.963218        0.111248E+22
          4883.61          4883.61        2.04767        0.999966        0.115439E+22
          4882.78          4882.78        2.04802        0.996142        0.114943E+22
          4881.95          4881.95        2.04836        0.977601        0.112751E+22
          4881.12          4881.12        2.04871        0.995483        0.114760E+22
          4880.29          4880.29        2.04906        0.982253        0.113182E+22
          4879.46          4879.46        2.04941        0.999607        0.115128E+22
          4878.63          4878.63        2.04976        0.998378        0.114933E+22
          4877.8          4877.8        2.05011        0.993501        0.114318E+22
          4876.97          4876.97        2.05046        0.995779        0.114527E+22
          4876.14          4876.14        2.0508        0.997803        0.114706E+22
          4875.31          4875.31        2.05115        0.99996        0.114900E+22
          4874.48          4874.48        2.0515        0.996558        0.114456E+22
          4873.65          4873.65        2.05185        0.999948        0.114792E+22
          4872.82          4872.82        2.0522        0.997574        0.114466E+22
          4871.99          4871.99        2.05255        0.999998        0.114690E+22
          4871.16          4871.16        2.0529        0.999955        0.114632E+22
          4870.33          4870.33        2.05325        0.999897        0.114571E+22
          4869.5          4869.5        2.0536        0.999924        0.114521E+22
          4868.67          4868.67        2.05395        0.993471        0.113729E+22
          4867.84          4867.84        2.0543        0.99995        0.114417E+22
          4867.01          4867.01        2.05465        0.999979        0.114367E+22
          4866.18          4866.18        2.055        0.9998        0.114293E+22
          4865.35          4865.35        2.05535        0.99818        0.114054E+22
          4864.52          4864.52        2.0557        0.999934        0.114201E+22
          4863.69          4863.69        2.05605        0.993488        0.113412E+22
          4862.86          4862.86        2.05641        0.999653        0.114062E+22
          4862.03          4862.03        2.05676        0.99995        0.114043E+22
          4861.2          4861.2        2.05711        0.999826        0.113975E+22
          4860.37          4860.37        2.05746        0.995392        0.113416E+22
          4859.54          4859.54        2.05781        0.999868        0.113873E+22
          4858.71          4858.71        2.05816        0.999998        0.113835E+22
          4857.88          4857.88        2.05851        0.999992        0.113780E+22
          4857.05          4857.05        2.05886        0.998616        0.113571E+22
          4856.22          4856.22        2.05922        0.997224        0.113359E+22
          4855.39          4855.39        2.05957        0.999985        0.113620E+22
          4854.56          4854.56        2.05992        0.99987        0.113553E+22
          4853.73          4853.73        2.06027        0.99952        0.113460E+22
          4852.9          4852.9        2.06063        0.993819        0.112760E+22
          4852.07          4852.07        2.06098        0.989798        0.112251E+22
          4851.24          4851.24        2.06133        0.995607        0.112857E+22
          4850.41          4850.41        2.06168        0.993503        0.112566E+22
          4849.58          4849.58        2.06204        0.992074        0.112351E+22
          4848.75          4848.75        2.06239        0.999901        0.113185E+22
          4847.92          4847.92        2.06274        0.999846        0.113125E+22
          4847.09          4847.09        2.0631        0.997955        0.112858E+22
          4846.26          4846.26        2.06345        0.957044        0.108181E+22
          4845.43          4845.43        2.0638        0.979567        0.110675E+22
          4844.6          4844.6        2.06416        0.99212        0.112040E+22
          4843.77          4843.77        2.06451        0.999465        0.112817E+22
          4842.94          4842.94        2.06486        0.995807        0.112351E+22
          4842.11          4842.11        2.06522        0.999368        0.112700E+22
          4841.28          4841.28        2.06557        0.999763        0.112691E+22
          4840.45          4840.45        2.06593        0.999975        0.112662E+22
          4839.62          4839.62        2.06628        0.999716        0.112580E+22
          4838.79          4838.79        2.06663        0.996151        0.112126E+22
          4837.96          4837.96        2.06699        0.999715        0.112474E+22
          4837.13          4837.13        2.06734        0.999763        0.112426E+22
          4836.3          4836.3        2.0677        0.997604        0.112131E+22
          4835.47          4835.47        2.06805        0.9947        0.111752E+22
          4834.64          4834.64        2.06841        0.999022        0.112185E+22
          4833.81          4833.81        2.06876        0.997809        0.111996E+22
          4832.98          4832.98        2.06912        0.999901        0.112178E+22
          4832.15          4832.15        2.06947        0.999815        0.112115E+22
          4831.32          4831.32        2.06983        0.989365        0.110891E+22
          4830.49          4830.49        2.07019        0.996134        0.111597E+22
          4829.66          4829.66        2.07054        0.983555        0.110136E+22
          4828.83          4828.83        2.0709        0.99886        0.111797E+22
          4828          4828        2.07125        0.996155        0.111442E+22
          4827.17          4827.17        2.07161        0.999499        0.111763E+22
          4826.34          4826.34        2.07197        0.999587        0.111720E+22
          4825.51          4825.51        2.07232        0.98304        0.109819E+22
          4824.68          4824.68        2.07268        0.999745        0.111632E+22
          4823.85          4823.85        2.07304        0.997419        0.111320E+22
          4823.02          4823.02        2.07339        0.999983        0.111554E+22
          4822.19          4822.19        2.07375        0.987049        0.110059E+22
          4821.36          4821.36        2.07411        0.997625        0.111186E+22
          4820.53          4820.53        2.07446        0.999026        0.111289E+22
          4819.7          4819.7        2.07482        0.999989        0.111344E+22
          4818.87          4818.87        2.07518        0.998964        0.111177E+22
          4818.04          4818.04        2.07553        0.99686        0.110891E+22
          4817.21          4817.21        2.07589        0.999925        0.111179E+22
          4816.38          4816.38        2.07625        0.999328        0.111060E+22
          4815.55          4815.55        2.07661        0.998285        0.110892E+22
          4814.72          4814.72        2.07697        0.999582        0.110983E+22
          4813.89          4813.89        2.07732        0.998455        0.110806E+22
          4813.06          4813.06        2.07768        0.999915        0.110915E+22
          4812.23          4812.23        2.07804        0.999999        0.110872E+22
          4811.4          4811.4        2.0784        0.995691        0.110342E+22
          4810.57          4810.57        2.07876        1        0.110768E+22
          4809.74          4809.74        2.07912        0.999989        0.110714E+22
          4808.91          4808.91        2.07948        0.997545        0.110391E+22
          4808.08          4808.08        2.07983        0.993335        0.109873E+22
          4807.25          4807.25        2.08019        0.998734        0.110418E+22
          4806.42          4806.42        2.08055        0.953185        0.105332E+22
          4805.59          4805.59        2.08091        0.990467        0.109400E+22
          4804.76          4804.76        2.08127        0.998103        0.110192E+22
          4803.93          4803.93        2.08163        0.99975        0.110321E+22
          4803.1          4803.1        2.08199        0.996943        0.109959E+22
          4802.27          4802.27        2.08235        0.992479        0.109415E+22
          4801.44          4801.44        2.08271        0.999897        0.110181E+22
          4800.61          4800.61        2.08307        0.999591        0.110095E+22
          4799.78          4799.78        2.08343        0.997477        0.109810E+22
          4798.95          4798.95        2.08379        0.999783        0.110011E+22
          4798.7          4798.7        2.0839        0.993787        0.109336E+22